Folder: CorroSenseBoardV4/measurements/ref

Note: README.md
# CorroSenseBoardV4

This repository contains documentation, Altium design files, and software for the **CorroSenseBoardV4**.

## Jumpers on PCB

Several jumpers must be configured correctly for the board to function as intended. The jumpers are explained below, grouped by the board type.

---

### Motherboard

#### Power Source Configuration

- **P400 (Pin 2 ↔ Pin 3):**  
  Selects the power source as **internal (USB/BAT)** instead of **energy harvesting**.

- **P401 (Pin 1 ↔ Pin 2):**  
  Selects the **battery** as the power source instead of **USB**.

- **P402 (Pin 2 ↔ Pin 3):**  
  Selects the power source as **internal (USB/BAT)** instead of **energy harvesting**.

#### Signal Routing

- **P105 (Pin 1 ↔ Pin 2):**  
  Routes the **DDS signal** to **P104**, the PZT connector on the motherboard.

- **P106 (Pin 1 ↔ Pin 2):**  
  Sends the **PZT output** to the **TIA** on the motherboard.

- **P107:**  
  *(Function not yet documented)*

![Motherboard](figures/Motherboard.jpg)

---

The board can then be powered on J101 with max 5VDC and min 3VDC.

### Daughterboard

*(Add relevant jumper details here if available)*

## Issues and TODO

#### Motherboard

- The very first ADC reading is always maximum value, doing 1 reading before main loop (and not saving the data) solves the issue.

- Mag and phase measure measurements are identical.

- The DDS gain is highly frequency dependent, above 100kHz the sinewave becomes more like a saw and amplitude of signal decreases. This happens ... could be because of OPAMPS or digital pot.

- Calculate phase and mag, find the right formula, struggling to get correct results, could be due to the VCOMM of 1.4V instead of 0.

- A good measurement is highly dependent on TIA gain and frequency... how to automate it? Maybe make a measurement on the TIA over frequency..?

File: TRACE01MAGPHASE.CSV
!Keysight Technologies,E4990A,MY54302532,A.03.02
!Date: Wed May 07 10:40:29 2025

BEGIN CH1_DATA
Frequency(Hz), |Z|(Ohm)-data, theta-z(deg)-data
50000, 1279.21, -88.7571
50391.4, 1268.86, -88.7635
50785.9, 1259.12, -88.7757
51183.5, 1248.9, -88.7712
51584.2, 1239, -88.7682
51988, 1229.29, -88.7517
52395, 1219.5, -88.7607
52805.1, 1209.74, -88.7578
53218.5, 1200.02, -88.7376
53635.1, 1190.64, -88.7531
54055, 1180.79, -88.7196
54478.2, 1172.24, -88.7308
54904.6, 1162.46, -88.7378
55334.5, 1153.78, -88.6808
55767.6, 1144.11, -88.7041
56204.2, 1135.68, -88.6225
56644.2, 1127.31, -88.7231
57087.6, 1117.99, -88.731
57534.5, 1108.73, -88.73
57984.9, 1099.74, -88.724
58438.9, 1090.79, -88.7061
58896.3, 1083.11, -88.7046
59357.4, 1073.9, -88.7134
59822.1, 1065.37, -88.7134
60290.4, 1056.73, -88.6958
60762.4, 1047.99, -88.7063
61238, 1040.41, -88.6525
61717.4, 1031.84, -88.6917
62200.6, 1023.23, -88.6895
62687.5, 1015.11, -88.6805
63178.3, 1006.66, -88.6858
63672.8, 998.736, -88.6755
64171.3, 990.328, -88.6763
64673.7, 982.069, -88.6578
65179.9, 973.739, -88.6355
65690.2, 965.976, -88.64
66204.4, 957.441, -88.619
66722.7, 949.367, -88.5469
67245.1, 942.601, -88.522
67771.5, 934.104, -88.5438
68302, 925.285, -88.4773
68836.7, 916.69, -88.3084
69375.6, 910.907, -87.9459
69918.7, 910.133, -87.8787
70466, 905.951, -88.0325
71017.7, 899.373, -88.1613
71573.6, 892.09, -88.282
72133.9, 884.729, -88.3018
72698.6, 877.692, -88.3961
73267.7, 870.046, -88.4588
73841.3, 862.401, -88.486
74419.4, 855.362, -88.4903
75001.9, 847.888, -88.4759
75589.1, 841.005, -88.5069
76180.8, 833.73, -88.5454
76777.2, 826.295, -88.5598
77378.2, 819.026, -88.5434
77984, 812.333, -88.552
78594.5, 805.27, -88.5566
79209.8, 798.201, -88.5489
79829.8, 791.352, -88.544
80454.8, 784.347, -88.5399
81084.6, 777.275, -88.5153
81719.4, 770.962, -88.4356
82359.1, 764.309, -88.4584
83003.8, 757.562, -88.4326
83653.6, 750.544, -88.4402
84308.5, 743.132, -88.4077
84968.5, 735.373, -88.3115
85633.7, 726.842, -88.1349
86304, 720.229, -87.3548
86979.7, 725.596, -86.9297
87660.6, 724.811, -87.13
88346.8, 722.806, -87.568
89038.4, 715.766, -87.9836
89735.5, 708.694, -88.1358
90437.9, 701.239, -88.2646
91145.9, 694.184, -88.2985
91859.4, 686.809, -88.3321
92578.6, 680.931, -88.3187
93303.3, 674.037, -88.3175
94033.7, 668.11, -88.3055
94769.8, 662.026, -88.295
95511.7, 655.787, -88.3254
96259.4, 649.209, -88.2905
97013, 643.21, -88.2669
97772.5, 637.159, -88.18
98537.9, 631.461, -88.2095
99309.2, 625.125, -88.1998
100087, 618.202, -88.1351
100870, 611.464, -88.0699
101660, 603.953, -87.9246
102456, 595.869, -87.689
103258, 586.905, -87.1442
104066, 579.308, -85.7517
104881, 589.733, -84.3972
105702, 608.976, -85.2042
106529, 605.075, -86.5704
107363, 597.583, -87.2245
108204, 589.705, -87.5681
109051, 582.612, -87.6922
109904, 576.527, -87.8325
110765, 571.042, -87.9178
111632, 564.946, -88.0184
112506, 559.314, -88.0801
113387, 553.52, -88.1284
114274, 547.742, -88.146
115169, 542.393, -88.1572
116070, 537.12, -88.1657
116979, 531.942, -88.1591
117895, 526.791, -88.1623
118818, 521.622, -88.1554
119748, 516.467, -88.1199
120685, 512.061, -88.0389
121630, 507.05, -88.0992
122582, 502.47, -88.0493
123542, 497.77, -88.0916
124509, 492.381, -88.0493
125484, 488.313, -87.9761
126466, 483.889, -87.9988
127456, 479.243, -87.9902
128454, 474.332, -87.9957
129459, 469.244, -87.8796
130473, 466.557, -87.8033
131494, 461.854, -87.8855
132524, 457.178, -87.898
133561, 452.439, -87.9044
134607, 448.044, -87.8623
135660, 443.648, -87.8376
136722, 438.861, -87.8385
137793, 434.602, -87.729
138871, 430.43, -87.7674
139959, 425.733, -87.7649
141054, 420.785, -87.7289
142158, 415.997, -87.6636
143271, 411.114, -87.5437
144393, 405.774, -87.3441
145523, 401.091, -86.8248
146662, 399.544, -86.2686
147811, 398.197, -86.1193
148968, 396.647, -86.1353
150134, 394.01, -86.2575
151309, 390.253, -86.3365
152494, 387.071, -86.42
153688, 383.118, -86.5297
154891, 379.411, -86.6171
156103, 375.079, -86.7486
157325, 370.549, -86.8226
158557, 365.846, -86.8518
159798, 361.031, -86.8423
161049, 356.232, -86.7351
162310, 352.094, -86.574
163580, 347.791, -86.5181
164861, 343.956, -86.3361
166152, 340.622, -86.4469
167452, 335.053, -86.4815
168763, 329.932, -86.2211
170084, 325.546, -85.9749
171416, 321.148, -85.682
172758, 317.377, -85.3488
174110, 314.021, -85.0313
175473, 311.94, -84.894
176847, 309.619, -84.9432
178231, 305.469, -85.168
179626, 300.52, -85.1634
181033, 294.484, -85.1383
182450, 289.255, -84.8981
183878, 284.17, -84.5634
185318, 280.554, -84.3346
186768, 275.85, -84.5193
188230, 268.155, -84.5854
189704, 259.231, -83.8639
191189, 251.998, -82.5249
192686, 249.286, -80.8171
194194, 247.594, -80.296
195714, 241.703, -79.9382
197247, 233.55, -78.76
198791, 225.437, -75.9146
200347, 222.769, -73.2722
201915, 220.685, -68.2609
203496, 242.013, -65.6259
205089, 260.478, -65.753
206694, 275.421, -69.9003
208313, 262.702, -72.1876
209943, 261.136, -72.4364
211587, 257.032, -73.7458
213243, 249.779, -74.1436
214913, 243.254, -74.4887
216595, 236.24, -73.9559
218291, 232.44, -74.2928
219999, 223.727, -73.5845
221722, 210.409, -72.8371
223457, 206.803, -69.4052
225207, 205.276, -68.2286
226970, 200.284, -66.7072
228747, 189.765, -64.7865
230537, 182.98, -60.612
232342, 177.84, -55.3985
234161, 175.342, -46.3436
235994, 211.846, -33.0628
237841, 286.375, -37.3811
239703, 294.989, -48.0278
241580, 289.664, -53.0023
243471, 271.211, -56.5487
245377, 244.702, -55.622
247298, 233.697, -48.5488
249234, 251.058, -37.8261
251185, 330.739, -39.0366
253151, 370.613, -42.848
255133, 416.035, -52.5822
257130, 401.806, -63.9184
259143, 363.659, -69.1141
261172, 335.229, -70.3538
263217, 323.088, -71.8761
265277, 307.08, -72.7525
267354, 297.482, -73.7032
269447, 284.495, -74.6137
271556, 271.294, -75.0512
273682, 255.703, -74.9133
275824, 246.116, -73.2499
277984, 239.79, -72.7044
280160, 227.849, -71.2725
282353, 221.392, -69.0225
284563, 220.119, -66.7633
286791, 215.871, -64.5471
289036, 217.086, -62.7494
291299, 214.771, -59.6868
293579, 222.25, -56.7312
295878, 242.528, -53.8394
298194, 250.673, -57.0164
300528, 257.401, -58.7247
302881, 250.676, -60.2144
305252, 258.608, -58.2111
307641, 258.778, -63.1482
310050, 233.764, -63.3949
312477, 227.754, -57.3935
314923, 234.356, -55.8708
317389, 240.363, -51.2508
319873, 258.317, -50.0635
322377, 288.858, -48.1933
324901, 319.226, -52.8697
327444, 330.236, -59.0964
330008, 321.097, -64.158
332591, 310.535, -65.7535
335195, 294.979, -68.3467
337819, 281.685, -67.2621
340463, 288.652, -66.2005
343129, 294.352, -68.0628
345815, 292.53, -71.2586
348522, 279.713, -72.4178
351250, 274.873, -72.4423
354000, 269.749, -73.2482
356771, 262.634, -74.359
359564, 249.854, -73.6562
362379, 248.03, -70.17
365216, 269.686, -69.5266
368075, 273.169, -74.0571
370956, 264.376, -76.131
373860, 258.836, -77.0639
376787, 254.054, -78.8102
379737, 244.201, -80.153
382710, 233.446, -79.5465
385706, 230.851, -79.5022
388725, 224.939, -80.3498
391768, 215.734, -80.1148
394835, 208.888, -79.1297
397926, 204.927, -77.3396
400000, 204.926, -76.625
END

File: TRACE01XY.CSV
!Keysight Technologies,E4990A,MY54302532,A.03.02
!Date: Wed May 07 10:40:02 2025

BEGIN CH1_DATA
Frequency(Hz), R(Ohm)-data, X(Ohm)-data
50000, 27.8124, -1278.85
50391.4, 27.4453, -1268.45
50785.9, 26.9522, -1258.69
51183.5, 26.8345, -1248.47
51584.2, 26.6779, -1238.58
51988, 26.8503, -1228.83
52395, 26.4288, -1219.03
52805.1, 26.2928, -1209.28
53218.5, 26.4875, -1199.58
53635.1, 25.9712, -1190.23
54055, 26.4345, -1180.42
54478.2, 26.0194, -1171.85
54904.6, 25.6646, -1162.16
55334.5, 26.5826, -1153.43
55767.6, 25.9609, -1143.78
56204.2, 27.3626, -1135.32
56644.2, 25.1734, -1126.99
57087.6, 24.8359, -1117.68
57534.5, 24.6121, -1108.42
57984.9, 24.5646, -1099.44
58438.9, 24.7226, -1090.49
58896.3, 24.5557, -1082.77
59357.4, 24.143, -1073.59
59822.1, 23.9847, -1065.05
60290.4, 24.1329, -1056.41
60762.4, 23.7153, -1047.72
61238, 24.5221, -1040.09
61717.4, 23.6609, -1031.55
62200.6, 23.478, -1022.93
62687.5, 23.4433, -1014.8
63178.3, 23.1533, -1006.37
63672.8, 23.1211, -998.444
64171.3, 22.9508, -990.056
64673.7, 23.0522, -981.844
65179.9, 23.1402, -973.789
65690.2, 22.8146, -966.16
66204.4, 23.0415, -957.393
66722.7, 23.8152, -949.175
67245.1, 24.177, -942.512
67771.5, 23.4663, -934.115
68302, 24.0477, -925.384
68836.7, 25.4969, -916.626
69375.6, 29.8526, -908.286
69918.7, 34.3949, -907.139
70466, 32.51, -904.51
71017.7, 30.0798, -898.711
71573.6, 27.6204, -891.822
72133.9, 26.8808, -884.576
72698.6, 25.0138, -877.599
73267.7, 23.7682, -869.991
73841.3, 23.0407, -862.339
74419.4, 22.7239, -855.194
75001.9, 22.7152, -847.694
75589.1, 22.0283, -840.799
76180.8, 21.2665, -833.564
76777.2, 20.8522, -826.114
77378.2, 20.9258, -818.804
77984, 20.6287, -812.098
78594.5, 20.3741, -805.022
79209.8, 20.303, -797.962
79829.8, 20.1962, -791.1
80454.8, 20.0514, -784.105
81084.6, 20.2219, -777.01
81719.4, 21.125, -770.68
82359.1, 20.5653, -763.976
83003.8, 20.7334, -757.223
83653.6, 20.4481, -750.153
84308.5, 20.6213, -742.768
84968.5, 21.653, -734.923
85633.7, 23.4422, -726.345
86304, 32.7452, -718.811
86979.7, 39.3929, -723.708
87660.6, 36.8883, -723.538
88346.8, 31.1172, -722.132
89038.4, 25.4909, -715.41
89735.5, 23.2468, -708.357
90437.9, 21.4183, -700.975
91145.9, 20.779, -693.906
91859.4, 20.1453, -686.534
92578.6, 20.1393, -680.636
93303.3, 19.9447, -673.748
94033.7, 19.9138, -667.795
94769.8, 19.8653, -661.711
95511.7, 19.3319, -655.486
96259.4, 19.5716, -648.868
97013, 19.6626, -642.886
97772.5, 20.4848, -636.794
98537.9, 19.9573, -631.135
99309.2, 19.881, -624.798
100087, 20.3945, -617.849
100870, 20.8912, -611.089
101660, 22.1853, -603.54
102456, 24.3878, -595.406
103258, 29.6047, -586.288
104066, 43.1769, -577.822
104881, 57.8478, -586.994
105702, 51.3025, -607.171
106529, 36.3468, -604.294
107363, 29.0191, -597.136
108204, 25.0462, -589.371
109051, 23.4445, -582.288
109904, 21.7672, -576.19
110765, 20.7131, -570.661
111632, 19.532, -564.544
112506, 18.7627, -558.932
113387, 18.1367, -553.132
114274, 17.7778, -547.417
115169, 17.5558, -542.016
116070, 17.3241, -536.739
116979, 17.2373, -531.555
117895, 17.0522, -526.431
118818, 16.9568, -521.262
119748, 17.1196, -516.081
120685, 17.6989, -511.668
121630, 17.0021, -506.69
122582, 17.2861, -502.09
123542, 16.7686, -497.413
124509, 16.9972, -492.021
125484, 17.3831, -487.939
126466, 17.087, -483.494
127456, 17.0248, -478.916
128454, 16.8231, -473.975
129459, 17.5526, -468.821
130473, 18.0941, -466.086
131494, 17.236, -461.478
132524, 16.9176, -456.789
133561, 16.7429, -452.074
134607, 16.9732, -447.633
135660, 16.9754, -443.228
136722, 16.7252, -438.506
137793, 17.4307, -434.148
138871, 17.0023, -430.049
139959, 16.8436, -425.296
141054, 16.9112, -420.403
142158, 17.2183, -415.564
143271, 17.7961, -410.65
144393, 18.9437, -405.288
145523, 21.9853, -400.275
146662, 26.1189, -398.094
147811, 27.3247, -396.847
148968, 27.2428, -395.477
150134, 26.2216, -392.974
151309, 25.4323, -389.365
152494, 24.6132, -386.246
153688, 23.6192, -382.338
154891, 22.7922, -378.75
156103, 21.6228, -374.489
157325, 20.8588, -370.011
158557, 20.4144, -365.302
159798, 20.2714, -360.561
161049, 20.5884, -355.697
162310, 21.3522, -351.515
163580, 21.1328, -347.158
164861, 21.9671, -343.285
166152, 21.3519, -339.951
167452, 20.7709, -334.394
168763, 22.0213, -329.192
170084, 22.9558, -324.671
171416, 24.2897, -320.178
172758, 25.828, -316.263
174110, 27.3385, -312.748
175473, 27.9159, -310.592
176847, 27.4683, -308.35
178231, 25.9315, -304.3
179626, 25.5364, -299.376
181033, 25.165, -293.347
182450, 25.9932, -288.03
183878, 27.1985, -282.867
185318, 27.9433, -279.192
186768, 26.5581, -274.656
188230, 25.4289, -266.981
189704, 27.8621, -257.828
191189, 32.8932, -249.952
192686, 39.879, -246.02
194194, 41.9668, -243.941
195714, 42.5909, -237.928
197247, 45.9526, -229.112
198791, 55.5016, -218.887
200347, 64.654, -213.951
201915, 81.6671, -206.048
203496, 99.1629, -220.575
205089, 106.825, -236.865
206694, 94.9349, -258.288
208313, 80.5622, -249.771
209943, 79.1887, -248.481
211587, 72.8117, -246.501
213243, 69.0462, -240.85
214913, 65.1182, -235.205
216595, 65.0066, -227.503
218291, 62.577, -223.957
219999, 62.9016, -214.732
221722, 61.8025, -200.933
223457, 72.6094, -193.266
225207, 76.0228, -189.932
226970, 79.8337, -183.628
228747, 81.0987, -171.313
230537, 90.1291, -158.839
232342, 101.224, -145.635
234161, 121.707, -125.827
235994, 179.052, -114.608
237841, 229.67, -173.855
239703, 198.332, -219.664
241580, 175.077, -231.649
243471, 149.683, -227.068
245377, 138.317, -202.525
247298, 154.775, -175.63
249234, 198.236, -154.72
251185, 256.404, -209.025
253151, 270.823, -252.176
255133, 252.275, -329.837
257130, 176.632, -360.51
259143, 129.85, -339.472
261172, 112.684, -316.914
263217, 100.789, -306.44
265277, 91.368, -293.239
267354, 83.6092, -285.428
269447, 75.7409, -274.221
271556, 70.2288, -262.117
273682, 66.7683, -246.934
275824, 71.059, -235.893
277984, 71.2407, -229.061
280160, 73.1457, -215.72
282353, 79.2914, -206.638
284563, 86.9137, -202.115
286791, 92.9778, -194.819
289036, 99.5536, -192.954
291299, 108.646, -185.289
293579, 122.191, -185.78
295878, 143.545, -195.849
298194, 136.907, -210.575
300528, 133.686, -220.497
302881, 124.467, -217.982
305252, 135.849, -220.069
307641, 116.616, -230.819
310050, 104.661, -208.725
312477, 122.936, -191.646
314923, 132.642, -193.965
317389, 151.381, -188.849
319873, 165.664, -199.438
322377, 191.668, -215.991
324901, 192.108, -254.282
327444, 169.528, -283.437
330008, 139.804, -289.181
332591, 127.056, -283.24
335195, 108.147, -274.027
337819, 108.52, -259.06
340463, 116.58, -263.597
343129, 110.118, -272.845
345815, 94.0824, -276.893
348522, 84.5776, -266.608
351250, 83.0128, -261.983
354000, 77.8712, -258.291
356771, 70.8476, -252.851
359564, 70.3352, -239.698
362379, 84.1084, -233.265
365216, 94.4458, -252.587
368075, 75.1079, -262.763
370956, 63.3048, -256.68
373860, 58.0077, -252.224
376787, 49.3749, -249.28
379737, 41.7798, -240.637
382710, 42.38, -229.6
385706, 42.0951, -227.027
388725, 37.6862, -221.804
391768, 37.098, -212.464
394835, 39.3821, -205.169
397926, 44.9643, -199.89
400000, 47.5068, -199.329
END